aX,aY,aZ,gX,gY,gZ
0.130,-1.742,0.593,-21.973,43.884,196.228
0.132,-1.761,0.521,-14.221,57.129,217.957
0.123,-1.881,0.527,-8.850,64.636,239.380
0.081,-2.312,0.584,-11.658,70.007,267.334
-0.117,-2.675,0.727,-9.216,76.111,317.139
-0.193,-2.941,0.959,-12.085,89.172,395.020
-0.562,-3.288,1.189,-19.226,115.234,483.154
-1.168,-3.318,1.146,31.921,158.630,599.609
-1.706,-2.939,1.029,89.294,198.853,730.042
-1.996,-2.266,0.845,142.822,222.534,846.008
-2.108,-1.740,0.762,186.279,226.746,921.143
-2.254,-1.280,0.864,218.994,215.637,961.975
-2.424,-0.879,0.894,231.873,206.360,978.516
-2.651,-0.675,0.795,241.760,202.759,976.013
-2.834,-0.421,0.647,262.573,194.336,974.182
-2.966,0.062,0.584,279.724,176.208,971.619
-2.908,0.905,0.587,281.799,155.640,955.750
-2.636,1.749,0.635,277.100,138.489,903.015
-2.191,2.359,0.549,277.588,126.099,805.115
-1.595,2.842,0.500,226.440,118.591,683.838
-1.101,3.383,0.493,161.987,116.882,564.575
-0.668,3.941,0.482,107.361,122.864,452.881
-0.290,4.000,0.200,92.224,135.986,340.454
-0.098,4.000,-0.098,60.242,136.597,215.088
-0.188,3.450,-0.294,15.869,114.075,68.054
-0.335,1.806,-0.348,-14.954,74.524,-63.293
-0.541,0.380,-0.210,-56.885,31.494,-121.033
-0.608,-0.372,0.010,-89.539,-0.610,-97.168
-0.570,-0.340,0.215,-96.130,-11.963,-26.672
-0.470,0.173,0.189,-75.745,-2.380,41.626
-0.345,0.609,-0.000,-39.917,13.672,72.144
-0.218,0.864,-0.159,-4.883,19.165,70.007
0.037,0.843,-0.167,4.028,11.108,49.316
0.164,0.954,-0.089,4.395,-2.747,34.363
0.206,0.997,0.068,10.254,-15.015,24.536
0.136,0.913,0.274,-3.052,-19.348,10.620
0.085,0.898,0.283,-6.531,-9.460,12.756
0.037,1.004,0.207,1.953,4.578,25.513
-0.044,1.192,0.071,20.935,15.381,37.598
-0.062,1.372,-0.162,33.691,17.700,41.260
-0.037,1.504,-0.251,25.757,6.775,33.203
0.045,1.635,-0.164,-1.709,-13.733,18.311
0.161,1.556,-0.026,-15.991,-31.189,-2.686
0.283,1.301,0.163,-25.269,-39.246,-21.729
0.360,1.114,0.208,-22.034,-32.593,-23.987
0.366,1.135,0.149,-18.066,-17.700,-10.925
0.371,1.259,0.009,-9.338,-4.395,1.892
0.377,1.294,-0.121,-7.263,1.465,2.747
0.370,1.203,-0.162,-7.202,-1.160,-5.432
0.357,1.105,-0.129,-11.230,-7.019,-13.123
0.328,1.010,-0.072,-14.160,-11.230,-17.456
0.314,0.925,-0.032,-13.123,-11.597,-18.738
0.310,0.855,-0.016,-10.376,-8.667,-16.663
0.287,0.778,-0.037,-7.507,-4.211,-12.268
0.261,0.793,-0.074,-6.836,-1.160,-4.883
0.242,0.906,-0.100,-8.484,0.061,2.136
0.207,1.015,-0.108,-12.634,0.061,3.418
0.175,1.021,-0.111,-10.193,-0.610,-2.014
0.181,0.968,-0.140,-6.897,-1.160,-7.385
0.193,0.910,-0.138,-6.836,-3.174,-9.338
0.191,0.900,-0.076,-6.104,-6.470,-7.141
0.211,0.951,-0.040,-5.493,-5.920,-3.479
0.229,1.000,-0.072,-4.028,-2.502,-2.991
0.241,1.003,-0.141,-1.770,-0.549,-6.592
0.269,0.940,-0.173,-2.319,-2.563,-12.634
0.270,0.821,-0.108,-4.822,-7.874,-16.907
0.266,0.801,-0.037,-6.104,-10.254,-13.794
0.269,0.833,-0.032,-3.723,-7.141,-8.118
0.292,0.870,-0.067,-0.183,-3.113,-5.249
0.312,0.894,-0.089,1.770,-1.587,-4.883
0.323,0.925,-0.079,1.587,-2.075,-4.944
0.325,0.948,-0.055,0.732,-2.258,-5.249
0.305,0.905,-0.025,1.892,-1.831,-6.958
0.287,0.894,-0.029,4.211,0.366,-5.554
0.288,0.888,-0.059,5.737,3.113,-2.380
0.295,0.924,-0.072,5.188,3.967,0.610
0.289,0.953,-0.069,3.601,3.662,2.380
0.274,0.962,-0.069,2.563,3.052,1.709
0.275,0.980,-0.091,2.136,2.808,0.732
0.278,0.986,-0.089,1.221,1.038,-1.221
0.289,0.966,-0.043,-0.183,-0.916,-3.235
0.278,0.962,-0.015,0.122,-0.732,-3.845
0.260,0.973,-0.033,1.953,1.770,-3.235
0.250,0.978,-0.073,3.113,3.479,-3.235
0.259,0.947,-0.085,2.136,2.686,-3.357
0.237,0.914,-0.035,-0.061,0.122,-2.930
0.238,0.914,0.028,-0.244,-0.427,-0.366
0.239,0.957,-0.007,2.991,3.845,3.540
0.241,0.988,-0.067,5.554,7.751,5.615
0.250,1.020,-0.096,4.272,7.385,5.554
0.250,1.019,-0.101,1.343,4.944,3.235
0.251,1.021,-0.088,-2.625,1.831,0.244
0.236,1.011,-0.084,-4.944,-0.061,-2.502
0.237,0.993,-0.087,-5.981,-1.099,-5.127
0.239,0.970,-0.086,-7.263,-2.197,-7.690
0.220,0.931,-0.069,-7.629,-3.662,-9.827
0.224,0.909,-0.054,-6.470,-4.333,-9.705
0.247,0.863,-0.045,-4.456,-4.028,-8.667
0.251,0.841,-0.035,-2.869,-2.991,-5.432
0.277,0.896,-0.029,-2.747,-1.160,0.305
0.242,0.916,-0.015,-2.869,1.221,4.272
0.282,1.044,-0.083,-0.427,5.066,7.385
0.301,1.067,-0.113,0.183,5.676,4.150
0.293,1.035,-0.143,-0.916,3.418,-2.747
0.293,0.968,-0.130,-2.869,-0.549,-7.935
0.294,0.927,-0.076,-5.920,-3.784,-9.155
0.296,0.910,-0.024,-7.507,-4.150,-6.836
0.300,0.899,-0.010,-5.005,-1.343,-3.845
0.269,0.887,-0.042,-2.441,3.418,-0.610
0.291,0.973,-0.109,-1.038,6.958,3.723
0.289,0.999,-0.124,-1.099,5.920,3.784
0.299,0.950,-0.113,-1.953,2.930,-0.488
0.303,0.910,-0.095,-3.296,0.427,-2.686
0.305,0.894,-0.063,-4.333,-0.427,-2.075
0.299,0.891,-0.067,-3.296,0.427,-0.427
0.286,0.902,-0.106,-2.075,2.441,1.831
0.280,0.952,-0.136,-1.831,2.441,3.540
0.279,0.994,-0.144,-2.869,0.427,2.319
0.277,1.004,-0.133,-4.272,-1.892,-1.465
0.166,-1.607,0.755,-18.616,100.098,240.479
0.174,-1.646,0.745,-13.367,112.366,257.385
0.118,-1.772,0.754,-17.944,123.535,275.146
0.011,-1.871,0.751,-13.916,135.986,301.453
-0.102,-1.805,0.696,0.061,150.513,338.928
-0.123,-1.588,0.600,12.695,162.720,376.831
-0.056,-1.331,0.511,23.987,169.128,403.870
0.051,-1.091,0.464,29.236,170.288,416.443
0.151,-1.057,0.474,29.236,167.236,416.443
0.072,-1.321,0.481,22.339,165.833,413.208
-0.051,-1.578,0.572,8.545,165.771,427.246
-0.175,-1.564,0.710,-4.150,172.180,464.539
-0.350,-1.448,0.731,8.362,188.721,505.615
-0.495,-1.353,0.684,31.128,208.069,542.114
-0.670,-1.211,0.630,50.354,224.548,573.425
-0.787,-0.880,0.584,70.068,235.352,603.577
-0.785,-0.525,0.512,77.209,244.568,622.803
-0.726,-0.461,0.626,69.702,246.216,622.986
-0.805,-0.510,0.834,39.307,252.075,620.178
-1.025,-0.329,1.085,31.372,274.109,633.240
-1.255,-0.086,1.305,52.307,312.439,652.344
-1.547,0.357,1.221,90.027,367.249,665.955
-1.821,0.945,0.779,139.160,424.133,669.373
-1.972,1.383,0.288,174.683,458.740,645.325
-2.093,2.050,-0.165,194.580,467.163,605.713
-1.936,2.884,-0.698,213.745,454.956,551.392
-1.488,3.418,-1.104,215.027,416.687,462.158
-0.934,3.646,-1.274,199.341,355.164,346.497
-0.451,3.477,-1.314,179.077,283.142,221.863
-0.220,2.729,-1.159,151.367,205.322,100.647
-0.296,1.669,-0.742,124.817,130.615,9.155
-0.524,0.750,-0.336,92.285,75.439,-31.982
-0.611,0.352,-0.185,59.387,49.377,-21.240
-0.557,0.529,-0.145,38.513,40.466,15.930
-0.465,0.797,-0.084,42.603,35.278,36.682
-0.262,0.879,-0.117,65.002,35.217,35.034
-0.089,0.838,-0.125,80.750,34.180,27.466
0.013,0.889,-0.125,84.290,30.884,27.771
0.098,1.056,-0.076,70.007,26.245,32.227
0.176,1.197,-0.039,51.819,23.254,30.273
0.114,1.251,-0.048,30.151,25.024,26.245
0.005,1.264,-0.128,16.418,27.588,19.775
-0.066,1.262,-0.235,-2.380,25.513,14.526
-0.076,1.253,-0.264,-18.311,14.587,9.216
-0.056,1.248,-0.233,-30.945,1.038,5.066
-0.038,1.218,-0.166,-38.757,-9.644,1.160
-0.007,1.202,-0.123,-44.250,-15.747,0.122
0.032,1.219,-0.095,-35.767,-17.090,1.343
0.099,1.225,-0.128,-27.344,-13.062,2.502
0.150,1.186,-0.178,-24.231,-9.033,0.977
0.178,1.175,-0.212,-25.940,-7.324,1.343
0.198,1.156,-0.254,-28.381,-6.897,1.587
0.199,1.111,-0.298,-36.377,-7.935,-0.122
0.147,0.980,-0.213,-40.100,-11.841,-3.540
0.157,0.939,-0.212,-42.236,-11.353,-4.028
0.184,0.934,-0.227,-38.391,-8.484,-0.671
0.135,0.885,-0.241,-34.729,-6.714,-1.953
0.104,0.830,-0.234,-30.396,-6.042,-2.075
0.090,0.826,-0.248,-25.513,-4.700,0.000
0.106,0.875,-0.241,-22.217,-3.967,3.479
0.093,0.928,-0.231,-19.775,-3.296,5.005
0.070,0.981,-0.266,-13.489,-1.831,4.333
0.096,0.970,-0.297,-10.437,-1.709,1.160
0.110,0.927,-0.285,-11.108,-3.906,-0.916
0.117,0.931,-0.243,-13.489,-5.432,1.282
0.104,0.980,-0.227,-12.756,-3.540,5.188
0.119,0.976,-0.257,-9.827,-0.427,4.456
0.120,0.943,-0.330,-7.507,1.648,1.587
0.118,0.909,-0.366,-8.606,0.000,-0.549
0.113,0.917,-0.347,-12.634,-4.700,-1.587
0.100,0.918,-0.291,-12.817,-9.216,-3.418
0.140,0.844,-0.249,-7.446,-11.108,-7.935
0.147,0.734,-0.219,-3.174,-9.888,-9.216
0.134,0.772,-0.200,-0.610,-6.531,-2.380
0.133,0.912,-0.228,2.441,-1.709,5.188
0.139,0.973,-0.265,9.033,1.343,4.395
0.190,0.958,-0.314,11.536,1.953,-0.488
0.197,0.947,-0.297,8.789,0.000,-2.319
0.163,1.010,-0.260,3.723,-1.343,-0.122
0.132,1.081,-0.280,2.258,0.000,0.000
0.084,1.068,-0.344,4.211,1.465,-5.371
0.046,0.894,-0.298,7.507,-2.869,-14.282
0.114,0.714,-0.215,7.507,-8.179,-15.259
0.186,0.723,-0.120,3.418,-7.385,-3.296
0.206,0.929,-0.074,3.296,0.183,12.634
0.155,1.069,-0.216,11.841,13.184,17.273
0.118,1.099,-0.460,18.433,20.020,10.925
0.099,1.110,-0.551,12.268,10.742,2.197
0.076,1.042,-0.350,0.244,-8.850,-6.287
0.101,0.943,-0.132,-5.432,-19.836,-11.230
0.145,0.916,-0.089,-3.784,-13.794,-7.812
0.142,0.966,-0.164,0.732,-2.747,-1.587
0.096,0.945,-0.207,4.028,3.479,1.221
0.068,0.941,-0.247,4.395,5.005,3.052
0.074,0.976,-0.297,3.540,5.066,6.348
0.086,1.009,-0.290,1.343,1.648,6.287
0.095,1.020,-0.270,-0.061,-1.099,3.235
0.113,1.006,-0.274,-0.366,-2.502,-0.427
0.126,0.987,-0.269,-1.587,-4.089,-2.686
0.128,0.972,-0.223,-3.601,-6.226,-3.662
0.124,0.950,-0.201,-3.479,-5.615,-3.418
0.121,0.948,-0.216,-2.625,-2.869,-2.319
0.119,0.967,-0.243,-2.380,-1.160,-1.160
0.113,0.959,-0.281,-2.869,-0.610,-1.526
0.121,0.942,-0.298,-4.211,-2.441,-2.563
0.127,0.920,-0.276,-6.409,-5.798,-3.235
0.137,0.901,-0.226,-8.057,-8.606,-3.479
0.150,0.902,-0.189,-7.996,-8.240,-2.502
0.151,0.927,-0.196,-5.554,-4.822,-1.587
0.137,0.940,-0.246,-2.258,-1.221,-1.282
0.139,0.935,-0.279,-1.221,-0.549,-1.526
0.148,0.947,-0.265,-2.563,-1.831,-1.160
0.159,0.945,-0.233,-4.150,-2.441,-0.977
0.155,0.953,-0.236,-3.845,-1.343,-0.793
0.154,0.957,-0.266,-2.563,0.122,-0.488
0.161,0.928,-0.270,-2.686,0.305,-1.038
0.158,0.924,-0.249,-3.540,-0.244,-0.305
0.140,0.957,-0.268,-3.601,0.793,0.854
0.113,0.953,-0.320,-2.441,1.526,-0.793
0.272,-2.069,0.238,-43.152,5.859,92.041
0.238,-1.991,0.225,-42.175,12.878,132.263
0.238,-1.921,0.206,-34.363,18.555,164.673
0.256,-1.893,0.193,-25.574,22.217,189.941
0.240,-1.938,0.152,-17.334,24.597,210.449
0.189,-1.992,0.122,-13.855,25.085,231.750
0.145,-2.022,0.139,-12.268,22.888,256.714
0.063,-2.023,0.117,-10.498,21.057,285.461
-0.023,-1.932,0.104,-6.287,18.677,316.895
-0.060,-1.754,0.111,3.967,14.893,346.497
-0.076,-1.544,0.128,14.343,10.132,368.896
-0.117,-1.341,0.133,21.240,5.981,383.484
-0.127,-1.216,0.139,21.667,1.343,391.846
-0.168,-1.166,0.176,11.719,-3.662,398.437
-0.117,-1.066,0.265,-4.761,-7.568,410.339
-0.187,-0.953,0.344,-16.724,-6.897,424.377
-0.263,-0.859,0.410,-35.645,-1.282,438.049
-0.277,-0.680,0.443,-45.227,8.789,455.933
-0.384,-0.533,0.411,-41.809,23.071,471.436
-0.478,-0.456,0.346,-39.673,35.461,482.483
-0.503,-0.434,0.402,-57.434,44.006,497.009
-0.485,-0.497,0.545,-76.721,56.091,514.771
-0.482,-0.571,0.777,-78.613,75.989,539.917
-0.571,-0.494,1.027,-81.177,108.704,574.707
-0.785,-0.168,1.184,-77.454,159.363,609.253
-1.027,0.275,1.159,-36.072,222.046,632.446
-1.264,0.602,0.965,32.043,281.738,633.057
-1.510,1.021,0.618,86.914,331.360,620.789
-1.590,1.532,0.132,125.916,365.479,600.891
-1.557,1.822,-0.292,150.574,372.803,558.411
-1.475,2.095,-0.634,144.409,354.187,504.089
-1.246,2.450,-0.929,130.493,319.824,447.205
-0.886,2.727,-1.082,136.047,266.296,373.901
-0.469,2.858,-1.067,145.996,198.853,284.302
-0.153,2.729,-0.901,126.343,134.033,187.439
-0.065,2.282,-0.680,96.436,81.543,98.938
-0.054,1.770,-0.450,54.016,43.945,38.757
-0.082,1.367,-0.228,10.986,19.775,9.644
-0.122,1.151,-0.051,-11.353,10.254,2.991
-0.172,1.036,0.031,-14.893,15.015,5.005
-0.143,0.884,0.003,4.456,25.452,6.470
-0.045,0.709,-0.040,22.339,32.776,9.766
0.015,0.612,-0.094,30.823,35.339,22.156
0.092,2.871,-0.605,17.090,30.273,32.104
0.018,1.699,-0.352,-4.639,-2.563,-53.040
0.243,0.873,-0.014,88.501,-24.292,-119.263
0.311,0.915,-0.067,48.096,-19.470,-110.168
0.333,1.187,-0.083,13.245,-19.531,-95.947
0.288,1.099,-0.069,4.089,-19.287,-69.519
0.285,1.086,-0.083,-3.296,-15.930,-51.758
0.296,1.007,-0.078,-13.306,-12.024,-34.424
0.294,0.758,0.029,-16.052,-12.573,-18.372
0.354,1.227,-0.145,-30.090,-8.972,4.333
0.260,0.779,-0.050,-36.865,-7.446,14.648
0.238,0.911,0.010,-26.062,-4.456,28.748
0.266,0.991,-0.074,-18.921,-1.465,36.316
0.291,1.038,-0.057,-16.602,4.150,43.762
0.282,0.986,-0.122,-11.230,10.071,46.448
0.285,1.024,-0.122,-11.230,10.437,48.706
0.325,1.143,-0.147,-14.038,9.033,48.706
0.358,1.144,-0.091,-0.305,5.920,34.485
0.372,1.084,0.015,16.907,8.484,16.235
0.362,1.013,0.048,33.997,15.564,3.052
0.312,0.898,0.074,51.086,27.771,-2.258
0.300,0.879,-0.192,50.293,44.067,-1.282
0.268,0.904,-0.417,38.086,44.434,0.122
0.252,0.961,-0.507,16.724,28.442,-1.526
0.267,0.949,-0.412,-4.700,2.991,-9.155
0.296,0.885,-0.165,-14.099,-19.226,-17.639
0.291,0.818,0.102,-10.559,-27.466,-20.691
0.355,0.753,0.287,12.207,-20.325,-17.944
0.374,0.712,0.310,29.907,2.197,-8.850
0.354,0.749,0.192,46.509,29.053,3.296
0.346,0.840,-0.020,53.772,49.927,13.977
0.330,0.899,-0.177,53.345,57.556,18.066
0.344,0.943,-0.275,50.842,53.162,16.479
0.346,0.969,-0.330,38.879,43.762,11.414
0.349,0.908,-0.329,27.771,29.419,3.174
0.336,0.835,-0.210,15.137,14.038,-2.808
0.319,0.823,-0.049,4.395,4.211,-3.052
0.293,0.797,0.050,4.578,4.883,-2.014
0.321,0.765,0.062,18.738,12.268,-0.122
0.333,0.736,-0.043,29.297,22.888,5.066
0.338,0.789,-0.107,28.625,26.978,14.221
0.318,0.926,-0.129,26.672,23.804,24.109
0.314,1.021,-0.107,15.320,19.470,27.527
0.307,1.087,-0.092,11.841,15.625,25.146
0.300,1.100,-0.080,11.902,13.794,19.043
0.302,1.095,-0.049,19.226,11.841,11.108
0.300,1.041,-0.002,27.100,12.268,3.357
0.321,0.956,0.040,29.724,14.526,-2.014
0.281,0.925,0.005,28.137,19.897,-2.380
0.287,0.953,-0.072,26.794,25.146,0.793
0.273,0.922,-0.161,25.696,23.926,0.854
0.246,0.866,-0.149,13.367,17.334,1.282
0.259,0.954,-0.146,5.371,9.277,6.165
0.268,1.036,-0.087,-2.075,2.075,8.484
0.264,1.092,-0.034,-4.822,-1.465,4.456
0.272,1.063,0.001,-0.122,-2.319,-2.258
0.284,0.979,-0.031,3.906,-0.977,-7.874
0.285,0.947,-0.072,2.808,-0.305,-8.179
0.262,0.972,-0.081,-1.526,-1.770,-5.798
0.264,0.991,-0.063,-5.249,-4.700,-5.310
0.314,0.918,-0.024,-5.615,-7.690,-6.958
0.324,0.854,0.050,-4.333,-8.362,-4.944
0.299,0.937,0.079,-4.700,-3.906,3.113
0.270,1.042,-0.010,-1.465,3.723,8.057
0.251,1.070,-0.137,2.380,7.080,4.395
0.269,1.014,-0.162,4.517,0.854,-3.174
0.286,0.954,-0.107,3.052,-7.507,-8.301
0.325,0.887,0.021,1.648,-12.939,-9.155
0.346,0.858,0.130,1.282,-11.169,-6.348
0.339,0.907,0.100,1.648,-1.709,-0.549
0.316,0.961,-0.033,3.479,7.690,3.723
0.284,1.001,-0.147,2.930,9.705,4.822
0.274,1.015,-0.160,-0.305,3.296,2.502
0.298,0.991,-0.115,-7.019,-4.150,-1.587
0.301,0.964,-0.047,-12.451,-9.277,-4.578
0.289,0.957,0.010,-13.367,-10.681,-5.981
0.000,-2.447,0.801,-65.186,0.000,46.204
-0.129,-2.562,0.883,-45.227,19.836,107.788
-0.138,-2.603,0.871,-30.884,45.227,172.119
-0.098,-2.690,0.769,-18.555,68.176,232.117
-0.188,-2.782,0.739,3.784,82.764,289.551
-0.441,-2.932,0.735,29.236,90.881,348.083
-0.659,-3.132,0.752,48.340,95.703,411.621
-0.784,-3.256,0.752,47.180,101.685,481.628
-1.147,-3.150,0.772,48.218,112.671,559.448
-1.540,-2.737,0.828,44.861,125.244,640.381
-1.861,-2.224,0.809,43.518,140.747,715.332
-2.150,-1.868,0.769,42.542,153.809,769.775
-2.377,-1.727,0.835,28.992,161.499,809.998
-2.766,-1.575,0.973,-2.747,175.964,854.614
-3.299,-1.364,1.132,-15.381,204.529,906.494
-3.828,-0.674,1.278,-9.949,246.155,968.567
-4.000,0.407,1.278,2.686,303.467,1016.968
-3.996,1.473,1.016,28.870,368.164,1017.517
-3.752,2.283,0.478,87.097,422.791,971.436
-3.235,2.782,-0.065,183.716,439.209,883.240
-2.568,3.005,-0.398,227.661,407.532,765.320
-1.816,3.150,-0.602,202.393,353.516,651.550
-0.976,3.060,-0.452,164.368,288.574,535.583
-0.523,3.025,-0.036,134.338,234.131,429.687
-0.521,3.297,0.392,118.286,214.783,331.970
-0.606,3.009,0.236,141.357,230.408,219.971
-0.649,2.534,-0.277,179.382,246.460,127.808
-0.657,1.952,-0.706,168.274,230.530,59.753
-0.638,1.378,-0.798,125.488,178.650,13.794
-0.583,0.599,-0.526,83.496,111.755,-17.700
-0.537,0.083,-0.142,61.890,58.472,-15.686
-0.407,-0.030,0.171,49.744,33.875,20.325
-0.346,0.182,0.336,52.917,35.645,64.697
-0.297,0.589,0.331,72.876,52.856,97.168
-0.232,0.898,0.193,101.501,71.899,103.882
-0.182,1.028,-0.039,124.756,83.008,90.576
-0.098,1.116,-0.250,127.808,77.820,71.289
-0.026,1.026,-0.270,106.689,55.298,48.706
-0.052,0.962,-0.111,78.369,25.146,32.288
-0.067,1.027,0.074,52.917,1.831,29.541
-0.061,1.139,0.219,31.250,-9.155,30.640
-0.066,1.219,0.279,29.724,-10.498,30.762
-0.053,1.287,0.250,35.889,-6.775,30.762
-0.043,1.373,0.182,35.217,-2.686,32.104
-0.014,2.779,-0.717,2.563,-9.094,29.297
0.045,1.163,0.313,-52.307,-62.866,-22.827
-0.009,1.237,0.392,-43.518,-72.327,-32.166
-0.015,1.452,0.119,-79.224,-57.495,-17.639
0.074,1.640,0.263,-80.566,-45.959,-19.592
0.046,1.085,0.116,-34.607,-38.452,-46.082
0.065,1.126,0.019,-36.560,-28.625,-41.138
0.053,0.946,0.090,-29.663,-23.071,-33.875
0.069,1.076,-0.030,-25.024,-14.587,-21.362
0.094,1.094,-0.031,-26.855,-13.977,-14.099
0.065,1.232,-0.020,-19.714,-11.719,-9.888
0.009,1.238,0.133,-19.348,-5.920,-12.146
-0.019,1.126,0.008,10.864,5.981,-19.226
-0.024,1.100,0.025,1.038,11.230,-20.447
-0.017,1.181,0.091,26.978,7.812,-16.541
0.015,1.175,0.004,24.231,14.709,-18.677
-0.001,1.169,-0.105,30.640,16.663,-23.621
0.049,1.138,-0.172,21.790,10.620,-29.297
0.092,1.025,-0.111,8.667,-2.136,-36.682
0.134,0.918,0.066,10.437,-15.076,-41.138
0.164,0.900,0.237,16.357,-16.113,-37.903
0.177,0.937,0.284,31.189,-3.906,-30.945
0.180,0.979,0.179,40.466,14.771,-26.794
0.176,1.006,-0.024,46.814,28.564,-25.757
0.183,0.999,-0.213,46.692,29.358,-27.161
0.177,0.995,-0.310,30.457,16.235,-29.236
0.179,0.984,-0.291,1.709,-4.944,-32.410
0.184,0.977,-0.150,-24.963,-27.893,-35.889
0.224,0.932,0.016,-42.358,-43.091,-38.696
0.257,0.813,0.209,-45.166,-47.668,-40.466
0.283,0.682,0.378,-28.015,-43.396,-37.109
0.281,0.670,0.360,-13.367,-24.658,-23.682
0.233,0.763,0.187,2.136,-2.563,-6.897
0.228,0.872,-0.008,13.855,9.155,3.357
0.214,0.955,-0.133,15.991,7.935,6.104
0.209,1.010,-0.174,8.362,-1.770,3.296
0.244,0.974,-0.135,-6.653,-15.320,-2.930
0.245,0.916,-0.039,-20.874,-27.771,-8.545
0.217,0.890,0.051,-31.067,-34.424,-9.460
0.191,0.903,0.126,-34.180,-35.339,-7.568
0.180,0.904,0.172,-29.602,-31.860,-6.409
0.174,0.907,0.193,-17.883,-26.245,-4.883
0.187,0.890,0.184,-5.371,-18.982,-2.625
0.209,0.873,0.157,2.258,-11.597,0.977
0.184,0.917,0.158,7.141,-6.348,7.019
0.161,0.994,0.136,14.771,-2.319,11.414
0.175,1.026,0.074,18.799,1.587,11.047
0.173,1.023,0.061,20.325,2.380,6.897
0.169,1.011,0.109,20.203,0.427,2.258
0.171,1.025,0.104,18.738,1.282,-0.793
0.194,0.986,0.047,17.334,2.991,-3.723
0.207,0.917,0.041,12.512,0.732,-5.737
0.186,0.928,0.079,4.639,-2.380,-2.197
0.171,0.987,0.110,-1.526,-3.845,2.625
0.161,1.049,0.153,0.061,-4.089,4.822
0.180,1.034,0.165,5.310,-2.075,1.831
0.166,1.012,0.100,8.911,2.136,-1.282
0.142,1.003,0.068,9.460,3.357,-1.953
0.150,0.989,0.114,9.033,0.366,-2.075
0.186,0.965,0.150,7.141,-0.305,-1.587
0.193,0.946,0.165,8.301,1.892,0.977
0.186,0.944,0.161,11.841,5.371,4.456
0.181,0.979,0.090,10.620,9.705,7.385
0.177,1.056,0.017,8.362,10.315,8.789
0.180,1.101,0.000,3.052,6.042,5.798
0.178,1.091,0.035,-2.380,-0.122,-0.488
0.167,1.049,0.094,-5.920,-4.700,-6.348
0.196,0.986,0.122,-8.423,-4.883,-10.071
0.194,0.957,0.095,-9.705,-2.625,-10.010
0.169,0.963,0.078,-10.376,-1.587,-7.629
0.169,0.963,0.072,-8.728,-2.197,-6.287
0.204,0.935,0.069,-7.935,-2.808,-6.042
0.210,0.926,0.085,-6.775,-3.418,-4.517
0.209,0.932,0.103,-6.165,-3.052,-2.930
0.205,0.945,0.089,-4.761,-1.282,-2.319
0.237,-1.741,1.035,-126.343,31.860,59.570
0.217,-1.922,1.085,-106.140,61.462,85.693
0.225,-2.058,1.054,-81.299,92.224,116.760
0.229,-2.146,1.033,-63.782,116.943,151.184
0.179,-2.213,1.007,-53.894,136.230,188.416
0.129,-2.224,1.032,-41.382,151.489,226.746
-0.028,-2.348,1.070,-26.550,165.039,258.606
-0.199,-2.680,0.984,-1.343,182.556,289.734
-0.473,-3.180,0.875,20.630,198.303,329.346
-0.550,-3.656,0.654,49.255,210.815,390.442
-0.978,-3.974,0.509,67.261,214.661,475.403
-1.493,-3.824,0.392,79.712,209.900,586.121
-2.082,-3.560,0.340,79.651,200.500,700.928
-2.730,-3.122,0.372,42.664,195.312,811.829
-3.372,-2.355,0.470,23.926,196.289,920.227
-3.841,-1.638,0.469,30.518,200.928,1002.563
-4.000,-1.009,0.467,38.635,211.304,1049.622
-4.000,-0.100,0.383,67.627,223.389,1079.346
-4.000,0.983,0.229,110.474,230.896,1078.674
-3.760,1.917,0.085,150.452,225.830,1023.499
-3.156,2.616,-0.078,197.754,203.552,923.950
-2.428,2.868,-0.191,216.248,165.527,784.363
-1.834,2.754,-0.148,206.360,118.042,641.785
-1.328,2.626,0.091,171.936,72.083,529.602
-0.913,2.616,0.437,119.263,43.945,450.134
-0.646,2.715,0.665,83.557,43.152,389.282
-0.521,2.858,0.673,81.665,64.819,333.557
-0.480,2.990,0.506,97.778,91.736,268.982
-0.494,2.760,0.178,118.774,111.877,186.768
-0.597,2.214,-0.205,126.892,115.173,98.938
-0.606,1.621,-0.434,105.225,96.863,33.691
-0.469,0.940,-0.427,77.454,61.768,-5.554
-0.348,0.347,-0.219,52.917,25.269,-15.930
-0.207,0.144,0.166,28.687,1.953,5.737
-0.113,0.210,0.475,39.978,4.272,39.246
-0.038,0.422,0.479,75.073,30.029,67.078
0.034,0.596,0.370,98.999,59.265,80.200
0.082,0.698,0.212,124.084,77.759,82.336
0.145,0.773,0.105,133.423,80.444,83.618
0.211,0.780,0.145,124.634,68.420,86.731
0.207,0.848,0.353,100.952,50.659,96.375
0.132,1.100,0.582,76.294,39.429,112.915
0.003,1.424,0.672,61.890,41.260,124.023
-0.093,1.702,0.571,58.838,51.086,122.314
-0.136,1.905,0.417,55.115,55.481,106.995
-0.141,1.986,0.315,46.265,48.706,78.857
-0.151,1.923,0.253,31.982,34.607,42.542
-0.117,1.743,0.257,13.062,17.334,6.775
-0.069,1.544,0.330,-4.395,1.343,-21.851
-0.021,1.274,0.422,-17.151,-8.240,-43.518
0.001,0.964,0.484,-20.142,-10.437,-54.932
0.020,0.816,0.469,-20.447,-5.310,-48.401
0.018,0.815,0.401,-17.883,1.099,-32.166
0.001,0.893,0.320,-14.343,5.432,-18.005
-0.001,0.993,0.239,-13.855,5.615,-10.681
-0.018,1.053,0.193,-16.113,2.136,-11.963
-0.003,1.067,0.194,-22.278,-3.784,-19.043
0.005,0.969,0.233,-27.344,-9.827,-29.419
0.009,0.844,0.295,-29.907,-13.428,-36.621
0.029,0.804,0.316,-30.273,-12.695,-35.034
0.027,0.805,0.293,-29.114,-9.216,-29.846
0.024,0.870,0.246,-27.954,-6.470,-24.780
0.024,0.944,0.185,-28.076,-5.432,-22.644
0.076,0.955,0.149,-31.555,-7.629,-25.574
0.084,0.930,0.142,-35.767,-12.024,-29.968
0.062,0.944,0.157,-42.419,-16.785,-31.921
0.049,0.983,0.159,-49.927,-20.203,-33.569
0.031,1.027,0.119,-55.176,-22.766,-36.255
0.050,1.109,0.060,-59.631,-26.306,-41.321
0.129,1.150,0.031,-68.665,-32.654,-52.002
0.175,1.062,0.121,-76.172,-42.480,-67.810
0.456,0.960,0.487,-69.275,-50.781,-80.444
0.364,0.926,0.917,-7.751,-43.823,-80.688
0.163,0.424,0.812,34.119,-0.916,-81.848
0.241,0.301,0.372,62.500,43.213,-56.152
0.283,0.438,0.009,57.556,60.730,-17.090
0.245,0.663,-0.077,40.771,50.354,12.390
0.223,0.872,0.065,16.113,29.785,29.480
0.223,0.911,0.213,5.249,18.433,32.532
0.212,0.880,0.243,10.010,18.982,30.701
0.194,0.935,0.193,13.184,22.827,32.776
0.203,1.050,0.162,11.719,23.132,35.339
0.164,1.068,0.190,8.362,19.653,32.288
0.122,1.015,0.165,5.981,17.822,26.245
0.174,1.013,0.070,0.366,16.663,23.743
0.143,1.103,0.076,-7.385,10.315,22.766
0.132,1.160,0.135,-16.418,2.258,16.113
0.136,1.128,0.189,-16.968,-2.136,5.188
0.155,1.047,0.244,-17.334,-3.540,-3.479
0.164,0.964,0.262,-18.005,-2.502,-6.653
0.144,0.896,0.241,-15.198,-0.061,-4.028
0.173,0.837,0.201,-12.634,2.197,2.136
0.150,0.814,0.193,-14.648,2.808,10.925
0.115,0.913,0.217,-19.226,3.113,21.912
0.094,1.048,0.179,-17.090,5.249,26.855
0.111,1.141,0.127,-13.428,6.409,23.071
0.114,1.141,0.105,-12.268,3.906,11.902
0.130,1.080,0.134,-12.268,-0.793,0.427
0.129,0.995,0.186,-12.939,-4.333,-7.202
0.118,0.960,0.229,-11.963,-4.761,-8.850
0.119,0.994,0.226,-8.057,-2.014,-5.920
0.129,1.030,0.192,-3.418,0.671,-4.822
0.117,1.021,0.154,-0.793,2.136,-7.019
0.138,1.010,0.130,-1.465,1.770,-8.728
0.126,0.997,0.139,-2.930,-0.549,-10.559
0.141,0.918,0.152,-3.540,-2.136,-13.245
0.156,0.828,0.154,-5.676,-2.808,-11.292
0.142,0.837,0.172,-10.254,-3.601,-3.418
0.132,0.911,0.208,-10.742,-4.089,3.967
0.141,0.974,0.233,-6.287,-2.563,6.165
0.190,1.002,0.272,-0.854,0.488,3.113
0.212,1.047,0.429,24.109,3.357,-2.441
0.102,0.813,0.427,32.593,15.869,-12.817
0.138,0.750,0.038,26.733,38.025,-6.470
0.135,0.877,-0.232,17.151,38.391,9.888
0.131,1.035,-0.201,-0.122,13.916,16.479
0.152,1.083,-0.011,-19.592,-10.132,11.719
0.182,1.095,0.202,-26.978,-22.156,4.089
0.188,1.076,0.320,-22.095,-20.691,-3.174
0.055,-2.418,0.279,-105.469,27.466,126.465
-0.085,-2.500,0.249,-69.153,39.795,180.237
-0.300,-2.669,0.077,0.671,49.866,237.671
-0.503,-2.988,-0.175,71.350,52.246,297.485
-0.584,-3.351,-0.358,121.033,38.391,367.065
-0.676,-3.507,-0.340,122.070,10.559,452.881
-0.959,-3.287,-0.285,118.774,-17.273,549.377
-1.158,-2.790,-0.087,112.305,-42.664,637.207
-1.314,-2.147,0.124,94.177,-57.190,701.111
-1.436,-1.440,0.222,87.524,-57.983,735.413
-1.425,-0.835,0.241,61.829,-47.974,737.488
-1.308,-0.444,0.218,31.555,-34.607,711.731
-1.219,-0.271,0.169,12.207,-23.682,672.485
-1.070,-0.311,0.107,2.502,-18.188,634.399
-1.017,-0.541,0.165,-4.028,-19.897,607.178
-1.134,-0.624,0.352,-7.446,-23.071,609.192
-1.263,-0.462,0.556,-10.620,-15.747,636.169
-1.323,-0.019,0.664,-2.869,6.470,670.044
-1.354,0.553,0.579,20.386,39.612,688.110
-1.251,1.162,0.370,49.805,70.313,678.101
-0.869,1.543,0.201,63.721,85.327,634.399
-0.516,1.550,0.121,62.256,86.609,559.570
-0.334,1.507,0.167,76.660,79.590,486.572
-0.168,1.166,0.302,83.069,74.280,422.852
-0.218,0.680,0.459,75.745,78.308,378.357
-0.385,0.438,0.542,70.740,92.773,374.451
-0.635,0.643,0.563,79.834,113.953,396.729
-0.746,1.159,0.440,112.488,137.634,416.443
-0.726,1.500,0.162,155.884,156.067,403.503
-0.693,1.611,-0.116,181.763,158.875,360.352
-0.651,1.515,-0.238,178.528,143.921,307.922
-0.686,1.535,-0.149,161.804,118.774,262.573
-0.566,1.522,-0.035,150.574,96.252,224.548
-0.374,1.383,0.112,151.978,82.092,187.500
-0.211,1.141,0.175,141.235,73.730,161.011
-0.231,1.139,0.308,118.774,64.880,157.837
-0.278,1.444,0.491,106.079,63.538,158.264
-0.233,1.694,0.460,97.534,76.233,139.709
-0.256,1.637,0.146,104.004,90.088,102.844
-0.260,1.350,-0.080,109.497,85.022,63.538
-0.226,1.048,-0.078,99.060,61.401,37.170
-0.207,0.957,0.172,82.703,34.363,33.264
-0.078,1.025,0.399,76.477,21.362,39.978
-0.022,1.119,0.437,68.359,24.292,46.509
-0.024,1.212,0.411,69.824,28.870,52.185
0.003,1.362,0.410,63.660,28.931,55.725
0.013,1.481,0.415,53.955,27.100,53.772
-0.000,1.579,0.400,45.410,26.733,45.288
-0.022,1.587,0.331,35.645,27.527,29.785
-0.031,1.547,0.233,26.184,26.489,10.010
-0.022,1.445,0.151,12.756,19.958,-9.705
-0.004,1.252,0.160,-0.549,7.935,-28.931
0.016,0.958,0.281,-4.883,-4.456,-40.955
0.020,0.748,0.422,-5.432,-9.827,-38.025
-0.021,0.745,0.403,-4.578,-4.150,-21.179
-0.019,0.880,0.303,-3.113,3.845,-3.540
-0.014,1.016,0.205,-2.869,5.981,5.737
-0.049,1.030,0.177,-6.042,2.319,3.845
-0.057,1.020,0.202,-11.597,-3.113,-0.854
-0.016,1.019,0.266,-14.832,-8.911,-4.944
0.033,0.970,0.298,-17.029,-10.132,-9.216
0.007,0.894,0.286,-13.062,-7.141,-12.695
0.017,0.894,0.256,-11.536,-3.906,-11.414
0.049,0.860,0.213,-12.512,-2.075,-10.193
0.050,0.836,0.199,-11.292,-2.930,-8.789
0.065,0.877,0.209,-12.451,-4.944,-5.493
0.048,0.922,0.222,-11.230,-5.371,-4.272
0.039,0.925,0.257,-7.812,-5.066,-7.324
0.092,0.877,0.272,-3.967,-3.479,-10.315
0.112,0.804,0.235,0.793,-0.549,-10.376
0.092,0.794,0.207,3.906,0.854,-5.432
0.064,0.865,0.203,3.418,0.549,0.732
0.081,0.947,0.218,2.014,0.183,2.747
0.107,0.985,0.222,1.465,0.000,0.061
0.096,0.970,0.192,2.319,0.610,-4.578
0.082,0.974,0.158,0.549,-0.244,-8.667
0.054,1.005,0.127,-5.432,-2.563,-12.390
0.047,1.053,0.126,-12.390,-7.202,-17.456
0.111,0.923,0.216,-16.785,-13.794,-25.208
0.091,0.645,0.461,-6.409,-20.752,-29.541
0.112,0.677,0.577,1.221,-12.878,-12.451
0.045,0.837,0.411,13.916,8.301,8.850
0.007,1.040,0.150,23.865,22.461,18.433
-0.009,1.181,-0.004,20.325,19.653,14.343
-0.014,1.230,0.006,8.545,5.188,-0.366
0.013,1.165,0.107,-4.761,-10.315,-18.982
0.055,1.006,0.237,-13.062,-21.118,-35.645
0.082,0.809,0.389,-11.414,-25.085,-42.297
0.165,0.657,0.477,-1.221,-20.447,-33.936
0.129,0.663,0.460,6.714,-8.057,-12.451
0.095,0.920,0.357,10.193,3.967,12.634
0.080,1.162,0.219,9.766,10.437,23.743
0.074,1.259,0.125,5.859,8.423,17.822
0.097,1.214,0.184,-0.793,-0.671,4.578
0.129,1.095,0.324,-7.751,-7.507,-5.676
0.094,0.963,0.408,-7.568,-5.310,-9.521
0.070,0.941,0.358,-4.211,2.808,-5.493
0.073,0.953,0.222,-0.854,10.681,-0.732
0.073,1.000,0.111,-2.563,11.169,1.709
0.072,1.039,0.089,-9.766,4.822,0.549
0.074,1.066,0.157,-19.409,-3.784,-3.784
0.069,1.065,0.246,-22.400,-8.850,-10.742
0.040,1.005,0.279,-18.127,-8.057,-18.677
0.081,0.915,0.239,-10.681,-4.944,-23.682
0.115,0.843,0.232,-9.949,-3.906,-22.278
0.097,0.818,0.274,-11.230,-4.211,-14.587
0.097,0.865,0.302,-12.207,-2.197,-4.578
0.087,0.910,0.278,-8.362,1.587,2.319
0.093,0.985,0.234,-5.005,5.310,5.981
0.083,1.021,0.181,-3.784,7.263,4.883
0.074,1.022,0.152,-4.028,5.920,0.610
0.072,0.976,0.151,-5.005,2.258,-3.540
0.089,0.934,0.161,-7.141,-0.793,-5.798
0.093,0.930,0.187,-7.996,-2.441,-5.249
0.100,0.888,0.225,-5.676,-3.418,-5.188
0.108,0.854,0.237,-2.380,-2.136,-4.150
0.117,0.896,0.201,0.916,0.610,-0.366
0.129,0.960,0.155,1.404,1.892,2.319
0.146,0.986,0.156,-0.122,0.183,2.014
-0.081,-2.377,0.301,-1.160,61.035,226.318
-0.181,-2.484,0.160,20.691,66.406,260.559
-0.225,-2.553,0.082,32.288,63.049,301.636
-0.259,-2.502,0.079,30.396,53.772,347.900
-0.230,-2.403,0.143,23.010,42.358,391.724
-0.214,-2.365,0.335,3.723,34.363,429.077
-0.335,-2.439,0.515,-4.639,33.813,464.294
-0.642,-2.431,0.628,-3.662,44.312,510.437
-0.882,-2.458,0.689,19.165,60.364,570.251
-1.245,-2.512,0.766,42.053,75.256,635.986
-1.668,-2.381,0.845,62.683,91.736,712.891
-2.108,-2.163,0.882,85.693,109.680,792.175
-2.526,-1.935,0.969,97.778,125.793,864.319
-3.023,-1.533,1.024,102.478,145.203,933.289
-3.596,-0.860,1.029,106.873,173.279,993.469
-3.936,0.086,0.940,121.948,202.087,1030.457
-3.939,1.086,0.766,135.620,228.577,1025.635
-3.692,1.886,0.535,167.786,246.460,970.276
-3.297,2.561,0.317,202.515,248.474,875.977
-2.745,3.118,0.047,231.323,235.901,754.761
-2.050,3.378,-0.220,239.502,206.726,614.075
-1.302,3.302,-0.349,224.060,160.339,470.276
-0.645,3.065,-0.210,183.960,106.628,346.558
-0.218,2.862,0.146,125.671,63.293,254.272
-0.078,2.631,0.533,85.510,44.861,180.725
-0.159,2.472,0.718,73.181,53.772,118.347
-0.252,2.135,0.579,82.581,80.811,57.983
-0.390,1.531,0.218,100.281,106.384,0.732
-0.423,0.934,-0.164,105.347,115.234,-33.142
-0.294,0.464,-0.400,91.614,102.356,-36.621
-0.128,0.149,-0.430,71.960,73.120,-14.587
-0.010,0.164,-0.223,57.678,39.856,25.391
0.047,0.419,0.057,46.692,18.555,66.223
0.069,0.685,0.238,54.810,15.625,88.684
0.094,0.773,0.292,74.158,23.926,92.529
0.128,0.711,0.281,90.576,33.875,90.088
0.100,0.772,0.288,97.473,38.086,97.107
0.032,1.016,0.281,89.539,38.574,110.229
-0.045,1.373,0.297,74.036,35.950,117.554
-0.093,1.675,0.278,57.068,32.471,111.023
-0.115,1.816,0.241,44.434,26.733,88.806
-0.125,1.841,0.246,33.752,16.296,59.387
-0.113,1.812,0.320,19.775,4.639,29.175
-0.098,1.672,0.376,6.531,-1.587,-0.366
-0.014,1.332,0.408,-0.488,-3.418,-26.550
0.025,1.025,0.438,-5.615,-2.869,-37.781
0.005,0.900,0.411,-8.057,1.465,-30.273
-0.001,0.910,0.307,-5.798,7.629,-16.663
0.019,0.957,0.172,-4.456,11.047,-7.812
0.051,1.027,0.080,-8.362,8.545,-4.883
0.055,1.048,0.080,-15.381,1.404,-8.545
0.061,0.941,0.148,-20.447,-5.798,-16.846
0.047,0.839,0.215,-20.691,-9.644,-20.874
0.057,0.808,0.232,-18.555,-7.874,-16.052
0.063,0.840,0.212,-16.663,-4.456,-8.423
0.079,0.913,0.193,-16.602,-2.808,-2.869
0.084,0.927,0.184,-14.038,-3.540,-1.953
0.075,0.977,0.174,-13.916,-4.211,-0.916
0.066,1.008,0.175,-15.320,-5.127,-0.977
0.073,1.045,0.166,-16.602,-5.493,-2.747
0.092,1.073,0.119,-17.883,-5.615,-7.385
0.106,0.991,0.109,-19.348,-7.812,-16.174
0.130,0.721,0.218,-16.052,-13.367,-22.644
0.135,0.580,0.336,-12.756,-12.756,-13.733
0.152,0.698,0.330,-8.484,-2.625,8.057
0.142,0.924,0.206,0.183,9.705,24.597
0.122,1.127,0.024,7.385,17.090,26.794
0.102,1.219,-0.105,6.958,13.794,15.137
0.095,1.200,-0.116,-1.526,1.648,-3.479
0.139,1.012,0.037,-12.512,-13.428,-21.973
0.154,0.723,0.268,-13.489,-23.376,-30.884
0.138,0.681,0.380,-8.911,-17.822,-18.982
0.109,0.845,0.321,0.610,-2.625,-0.488
0.101,1.061,0.149,10.620,10.498,8.606
0.106,1.170,-0.005,12.695,13.489,4.028
0.080,1.140,-0.009,5.493,4.822,-7.812
0.083,0.947,0.128,0.366,-6.836,-19.775
0.110,0.829,0.257,0.244,-10.803,-20.630
0.153,0.828,0.302,1.282,-5.554,-10.498
0.145,0.893,0.273,6.165,2.930,0.183
0.121,1.020,0.195,10.498,10.620,7.935
0.099,1.121,0.076,12.390,14.587,7.751
0.113,1.139,-0.007,9.644,11.475,0.549
0.113,1.085,0.008,2.014,2.258,-8.850
0.085,0.990,0.125,-4.395,-7.507,-15.869
0.103,0.822,0.272,-3.967,-12.146,-17.456
0.140,0.802,0.330,-2.197,-7.202,-8.911
0.143,0.901,0.265,3.601,2.380,3.540
0.106,1.030,0.141,8.728,9.705,10.437
0.082,1.086,0.060,9.399,9.033,8.911
0.120,1.039,0.078,4.700,1.831,2.686
0.127,0.980,0.179,-1.465,-4.456,-0.549
0.105,1.014,0.258,-4.822,-5.493,1.404
0.087,1.054,0.248,-2.075,-1.099,2.014
0.100,1.045,0.177,2.258,3.357,-0.854
0.120,1.011,0.101,3.113,3.906,-3.723
0.115,0.987,0.084,-0.916,0.244,-5.371
0.094,1.005,0.112,-6.226,-4.272,-6.409
0.074,1.010,0.152,-7.629,-7.568,-8.972
0.110,0.923,0.192,-4.700,-8.728,-13.306
0.161,0.803,0.253,-3.296,-7.568,-12.634
0.166,0.829,0.298,-3.174,-3.662,-2.747
0.130,0.930,0.244,-0.427,3.540,7.385
0.099,0.989,0.131,4.333,9.155,9.277
0.106,1.010,0.027,5.188,8.728,5.554
0.127,1.012,0.008,0.427,1.770,0.610
0.136,1.017,0.087,-7.690,-6.897,-3.357
0.141,1.020,0.185,-13.123,-12.207,-7.019
0.151,0.993,0.237,-11.230,-11.414,-10.620
0.166,0.867,0.263,-3.174,-7.202,-13.611
0.169,0.785,0.246,1.587,-1.648,-9.827
0.160,0.865,0.185,3.418,3.906,1.282
0.148,0.995,0.132,3.601,6.042,9.399
0.146,1.075,0.098,3.113,5.066,9.033
0.145,1.086,0.086,1.282,2.258,3.235
0.155,0.981,0.117,-0.427,-1.282,-4.272
0.156,0.776,0.176,-0.244,-3.601,-7.080
0.139,0.739,0.230,0.122,-2.991,1.587
0.134,0.881,0.229,1.892,1.343,16.296
0.021,-1.655,1.241,-181.946,2.197,-80.994
-0.090,-1.826,1.458,-189.148,26.733,-61.584
-0.255,-2.128,1.503,-146.240,65.735,-35.645
-0.461,-2.506,1.320,-89.355,111.633,0.488
-0.553,-2.846,1.109,-38.330,148.743,55.664
-0.703,-3.122,0.964,10.498,169.373,122.925
-0.844,-3.297,0.875,46.936,179.443,202.698
-0.970,-3.384,0.878,59.143,185.059,286.804
-1.096,-3.286,1.041,68.665,184.998,373.840
-1.430,-3.101,1.246,63.110,189.392,458.496
-1.667,-2.659,1.262,58.838,210.083,545.044
-2.109,-2.091,1.208,67.444,236.816,624.695
-2.334,-1.507,1.046,81.787,264.099,686.951
-2.394,-1.090,0.821,86.670,288.757,731.262
-2.519,-0.688,0.723,106.995,302.734,763.184
-2.640,-0.132,0.627,164.185,307.129,796.143
-2.559,0.484,0.510,213.013,302.246,817.444
-2.295,1.047,0.392,216.309,291.870,810.364
-1.886,1.488,0.229,219.727,276.917,775.513
-1.363,1.641,0.058,220.764,255.188,713.806
-0.992,1.628,-0.010,212.952,224.426,637.634
-0.669,1.571,0.010,194.885,190.979,569.702
-0.468,1.438,0.071,170.898,163.696,510.010
-0.411,1.378,0.106,148.682,146.179,463.562
-0.358,1.321,0.071,131.592,138.245,427.673
-0.359,1.231,-0.017,121.643,133.789,395.020
-0.323,1.205,-0.098,109.436,128.296,368.713
-0.253,1.212,-0.137,95.886,119.934,345.581
-0.175,1.182,-0.167,91.064,110.168,320.984
-0.130,1.142,-0.131,78.125,99.731,296.814
-0.165,1.193,-0.097,72.571,92.346,277.893
-0.192,1.299,-0.097,71.167,90.088,260.437
-0.194,1.283,-0.187,84.045,89.172,236.511
-0.201,1.148,-0.245,90.759,82.581,210.144
-0.231,1.115,-0.237,91.553,69.519,195.007
-0.195,1.225,-0.144,88.074,55.115,188.599
-0.146,1.296,-0.031,89.050,44.861,177.368
-0.105,1.299,0.109,91.675,37.964,160.828
-0.054,1.363,0.252,85.144,36.316,149.597
-0.121,1.416,0.333,95.337,42.969,138.062
-0.157,1.519,0.319,102.905,54.016,126.587
-0.184,1.621,0.157,115.723,68.176,113.708
-0.153,1.605,-0.033,119.629,74.829,92.773
-0.119,1.520,-0.206,118.958,67.871,68.909
-0.068,1.443,-0.252,98.328,48.584,49.866
-0.013,1.395,-0.206,70.435,23.987,35.522
0.031,1.345,-0.062,43.823,0.671,24.170
0.063,1.265,0.122,23.010,-15.564,13.672
0.071,1.236,0.251,12.390,-20.813,8.911
0.100,1.229,0.310,10.376,-16.846,6.653
0.145,1.274,0.299,9.155,-8.118,4.822
0.138,1.238,0.246,10.681,-0.122,-0.183
0.119,1.188,0.184,11.719,4.639,-5.310
0.133,1.099,0.155,6.592,6.165,-8.667
0.121,1.038,0.141,0.732,6.165,-8.240
0.112,1.063,0.112,-3.418,6.714,-3.113
0.137,1.085,0.086,-7.385,6.775,-0.610
0.157,1.098,0.084,-10.803,5.066,-1.160
0.147,1.138,0.073,-14.282,4.028,-2.808
0.122,1.180,0.014,-17.090,4.272,-7.507
0.105,1.168,-0.075,-18.433,3.174,-16.052
0.175,1.070,-0.091,-20.874,-3.540,-26.672
0.191,0.977,-0.059,-25.208,-12.512,-32.898
0.187,0.893,0.029,-28.564,-19.958,-34.485
0.220,0.818,0.144,-26.917,-23.560,-32.349
0.260,0.805,0.217,-26.794,-18.555,-24.353
0.242,0.834,0.177,-18.311,-6.958,-14.343
0.219,0.891,0.062,-11.108,3.418,-6.897
0.208,0.940,-0.046,-5.981,7.935,-4.089
0.255,0.948,-0.084,-6.104,5.127,-5.310
0.279,0.926,-0.059,-10.193,-0.671,-6.897
0.262,0.943,-0.021,-13.550,-4.517,-6.470
0.234,0.986,-0.012,-15.015,-5.371,-6.409
0.205,1.023,-0.053,-14.648,-4.944,-9.705
0.206,0.997,-0.060,-12.329,-7.141,-16.724
0.268,0.896,0.007,-9.460,-12.207,-23.254
0.280,0.840,0.059,-7.385,-13.245,-22.278
0.263,0.866,0.082,-5.066,-10.010,-15.747
0.237,0.948,0.043,-2.136,-4.578,-10.437
0.228,1.030,-0.048,1.648,-0.366,-10.681
0.236,1.078,-0.142,2.319,-0.671,-16.907
0.238,1.098,-0.173,-1.465,-6.836,-26.306
0.238,1.065,-0.119,-7.080,-17.639,-37.109
0.271,0.941,-0.005,-8.972,-28.015,-47.363
0.324,0.776,0.074,-8.118,-32.288,-51.025
0.363,0.669,0.172,-9.033,-31.494,-43.213
0.401,0.624,0.275,-6.042,-26.123,-25.757
0.398,0.655,0.383,-2.991,-14.771,-5.127
0.334,0.845,0.353,4.517,4.517,16.113
0.280,1.031,0.140,17.395,26.123,27.283
0.241,1.109,-0.114,25.940,36.804,24.658
0.263,1.095,-0.241,25.635,29.907,15.686
0.275,1.044,-0.199,14.648,12.512,7.690
0.267,1.040,-0.056,0.427,-2.502,3.967
0.246,1.046,0.073,-7.446,-9.094,1.404
0.235,1.009,0.133,-7.019,-7.141,-1.770
0.229,0.938,0.108,-0.610,-1.282,-3.479
0.231,0.929,0.052,2.563,3.784,-1.892
0.224,0.992,-0.004,0.977,5.920,2.197
0.200,1.025,-0.005,-0.549,3.296,2.625
0.219,0.981,0.037,1.221,-0.610,0.061
0.254,0.939,0.062,0.427,-1.526,-0.305
0.270,0.919,0.090,0.000,-0.610,2.075
0.251,0.944,0.095,-0.061,1.587,5.859
0.224,0.981,0.063,2.747,5.188,8.545
0.236,1.001,0.020,3.357,7.019,8.423
0.244,0.999,-0.003,2.808,6.348,6.165
0.236,1.012,0.001,1.282,3.906,4.150
0.239,1.033,0.012,-0.854,1.404,1.831
0.235,1.018,0.003,-2.197,0.183,-1.953
0.235,0.947,0.003,-2.686,-1.038,-6.287
0.245,0.899,0.021,-4.272,-2.747,-7.507
0.265,0.869,0.054,-4.395,-4.150,-4.761
0.281,0.869,0.110,-5.737,-4.089,-0.732
0.274,0.933,0.114,-4.944,-0.610,5.066
0.252,0.995,0.054,-1.709,4.578,7.202
0.265,1.024,-0.025,0.732,6.897,4.639
0.285,0.975,-0.070,-0.732,3.845,-0.732
0.301,0.885,-0.005,-5.310,-2.136,-3.235
0.269,-1.350,1.011,-47.302,40.588,32.715
0.187,-1.479,0.994,-40.039,55.786,47.668
0.108,-1.567,0.996,-31.799,70.007,66.345
0.162,-1.628,1.056,-22.400,82.764,86.060
0.184,-1.772,1.045,-13.733,97.107,104.065
0.184,-1.886,0.972,-5.798,110.474,127.014
0.158,-1.887,0.934,-4.822,119.873,156.555
0.158,-1.788,0.937,-13.428,126.831,186.584
0.131,-1.670,0.906,-21.484,134.583,211.792
0.126,-1.601,0.890,-25.574,141.296,231.567
0.113,-1.523,0.936,-34.424,147.522,250.549
0.071,-1.463,0.950,-36.072,157.410,270.447
-0.046,-1.430,0.895,-35.217,173.218,289.246
-0.126,-1.378,0.783,-29.907,190.430,308.044
-0.159,-1.348,0.717,-23.376,202.148,325.256
-0.133,-1.344,0.673,-25.452,208.557,342.590
-0.063,-1.370,0.767,-35.583,210.571,362.610
-0.177,-1.353,0.952,-40.405,213.379,389.282
-0.407,-1.407,1.139,-42.419,227.478,419.983
-0.630,-1.775,1.327,-58.105,256.531,449.646
-1.088,-2.097,1.398,-60.791,302.002,495.239
-1.683,-2.119,1.278,-48.950,363.159,572.754
-2.236,-1.752,1.058,-12.390,421.143,669.006
-2.712,-1.106,0.904,13.000,469.116,755.798
-3.139,-0.274,0.673,45.044,508.118,819.458
-3.353,0.574,0.359,84.656,538.086,850.891
-3.353,1.322,-0.003,116.821,555.786,841.858
-3.171,2.032,-0.298,163.879,551.025,794.922
-2.674,2.540,-0.582,218.628,516.785,712.952
-2.229,2.977,-0.746,241.272,466.431,608.948
-1.778,3.447,-0.812,266.785,405.334,504.700
-1.268,3.738,-0.829,252.563,341.614,390.747
-0.867,3.638,-0.802,233.398,279.968,267.029
-0.630,3.166,-0.703,205.261,220.886,150.757
-0.296,2.497,-0.607,164.795,167.847,62.073
-0.131,1.804,-0.514,124.756,122.681,3.113
-0.191,1.255,-0.447,87.952,85.205,-25.269
-0.352,0.891,-0.301,51.758,53.406,-32.166
-0.407,0.588,-0.147,37.659,32.227,-31.860
-0.331,0.353,-0.108,44.434,27.283,-23.499
-0.184,0.236,-0.077,64.148,29.358,-4.944
-0.052,0.232,-0.057,78.308,33.081,19.165
0.130,0.367,-0.069,86.304,36.377,50.293
0.177,0.571,-0.059,89.722,36.682,77.393
0.128,0.781,-0.050,87.036,34.485,94.910
0.029,0.963,-0.050,76.660,31.677,103.577
0.014,1.247,-0.014,64.697,25.085,110.291
0.014,1.551,-0.026,48.401,20.081,110.779
-0.005,1.754,-0.045,33.020,14.160,97.107
-0.060,1.851,-0.047,18.066,6.653,71.899
-0.074,1.856,-0.040,5.798,-0.305,41.809
-0.044,1.725,-0.069,-5.127,-5.981,10.620
-0.013,1.504,-0.118,-13.977,-11.475,-16.479
0.029,1.255,-0.122,-24.109,-19.592,-35.339
0.057,1.032,-0.102,-35.400,-26.855,-43.518
0.059,0.894,-0.055,-44.861,-31.799,-40.894
0.099,0.817,-0.008,-51.636,-33.203,-31.067
0.093,0.783,0.020,-53.406,-30.029,-18.555
0.085,0.853,0.016,-50.049,-23.560,-5.005
0.130,0.907,-0.021,-41.199,-15.686,2.808
0.133,1.000,0.070,-31.860,-9.277,2.014
0.073,0.886,0.004,-18.372,1.282,-7.324
0.135,0.844,-0.159,-7.507,9.949,-5.127
0.117,0.836,-0.269,-8.911,7.507,2.625
0.051,0.859,-0.216,-16.724,-2.563,11.414
-0.005,0.958,-0.130,-20.691,-10.742,17.761
-0.005,1.088,-0.082,-19.714,-12.817,20.752
0.000,1.180,-0.072,-12.878,-10.742,15.503
-0.022,1.230,-0.117,-4.578,-6.531,4.456
-0.025,1.229,-0.209,1.892,-4.272,-8.911
0.028,1.096,-0.239,3.479,-9.033,-24.170
0.110,0.980,-0.187,-2.319,-18.066,-31.982
0.141,0.914,-0.104,-9.521,-23.743,-31.067
0.115,0.898,-0.055,-12.207,-23.376,-26.855
0.129,0.893,-0.069,-10.315,-18.433,-21.729
0.168,0.750,-0.005,-6.958,-15.991,-20.081
0.207,0.728,0.082,-3.845,-12.451,-9.338
0.214,0.841,0.094,2.014,-1.953,7.812
0.129,0.992,-0.019,11.292,11.658,18.738
0.089,1.148,-0.207,20.508,20.996,20.447
0.062,1.228,-0.356,21.729,18.982,11.292
0.039,1.226,-0.405,14.526,6.287,-3.967
0.072,1.144,-0.309,0.061,-11.780,-19.653
0.162,0.924,-0.052,-12.512,-28.992,-30.884
0.158,0.776,0.189,-13.977,-32.349,-28.320
0.099,0.785,0.232,-6.287,-16.724,-12.451
0.057,0.876,0.089,8.545,5.127,1.770
0.044,0.990,-0.150,21.912,20.630,9.216
0.051,1.078,-0.333,24.170,21.118,7.324
0.068,1.134,-0.399,14.465,8.118,-1.282
0.114,1.115,-0.333,-0.854,-10.986,-13.489
0.181,0.985,-0.156,-15.076,-29.846,-24.719
0.215,0.832,0.033,-18.433,-39.673,-27.588
0.187,0.812,0.184,-20.020,-35.645,-17.456
0.150,0.892,0.187,-12.451,-19.592,-3.052
0.148,0.986,0.076,-0.366,-1.404,5.859
0.158,1.030,-0.044,9.399,10.254,9.277
0.152,1.033,-0.126,11.658,13.000,10.437
0.129,1.085,-0.161,6.348,10.071,12.268
0.106,1.159,-0.169,0.244,5.066,12.024
0.088,1.164,-0.140,-2.441,0.061,5.493
0.089,1.069,-0.117,-2.319,-2.258,-3.784
0.149,1.000,-0.115,-2.625,-2.686,-8.545
0.144,0.990,-0.090,-6.836,-2.869,-9.033
0.136,0.995,-0.086,-8.972,-2.075,-8.423
0.153,0.942,-0.066,-11.230,-1.587,-8.362
0.162,0.903,-0.043,-13.000,-0.610,-6.287
0.137,0.906,-0.033,-12.390,2.258,-1.038
0.115,0.962,-0.053,-8.667,6.287,4.761
0.101,0.985,-0.099,-4.211,9.460,6.836
0.094,0.973,-0.114,-1.038,10.071,5.615
0.084,0.996,-0.144,-0.854,10.132,4.822
0.072,0.999,-0.169,-0.305,8.972,2.197
0.070,0.971,-0.192,-1.282,6.042,-1.221
0.077,0.945,-0.198,-2.686,1.953,-2.930
0.090,0.954,-0.187,-4.211,-1.587,-3.174
0.113,0.987,-0.164,-6.042,-4.944,-3.784
0.129,1.015,-0.126,-8.057,-7.324,-6.592
0.112,1.000,-0.100,-6.531,-7.935,-11.230
0.320,-2.259,0.559,6.653,31.799,64.026
0.332,-2.460,0.624,-1.465,35.217,111.938
0.383,-2.501,0.757,-21.729,39.490,169.006
0.325,-2.480,0.894,-40.771,49.988,222.717
0.224,-2.451,0.992,-39.856,68.542,267.639
0.112,-2.380,1.001,-24.475,91.614,311.646
0.016,-2.303,0.947,-7.263,114.441,352.844
-0.079,-2.215,0.820,1.038,135.010,388.977
-0.209,-2.132,0.702,10.010,148.865,422.119
-0.372,-2.079,0.616,10.376,154.846,453.613
-0.532,-2.138,0.614,-1.221,156.128,483.521
-0.716,-2.265,0.695,-18.982,156.067,520.020
-1.076,-2.273,0.832,-50.781,163.391,575.378
-1.460,-2.433,0.973,-64.819,180.664,638.550
-2.076,-2.632,1.208,-83.923,210.327,705.811
-2.862,-2.425,1.232,-65.491,260.376,798.828
-3.493,-1.790,1.048,-9.888,314.453,906.311
-3.926,-0.940,0.850,29.480,355.530,995.728
-4.000,-0.036,0.668,44.312,386.230,1049.500
-4.000,0.948,0.481,43.457,411.743,1064.331
-4.000,1.835,0.296,49.622,429.687,1030.701
-3.727,2.544,0.067,63.965,440.002,951.660
-3.229,3.158,-0.192,86.304,439.453,842.957
-2.547,3.705,-0.370,101.990,422.974,715.820
-1.675,4.000,-0.560,128.540,393.738,569.641
-1.029,4.000,-0.592,135.620,354.004,408.691
-0.831,3.960,-0.575,133.545,312.622,242.371
-0.777,3.241,-0.630,133.240,273.743,96.069
-0.791,2.373,-0.734,127.747,234.192,-15.991
-0.732,1.540,-0.789,108.582,185.669,-93.994
-0.731,0.747,-0.721,86.243,132.202,-145.386
-0.640,0.080,-0.583,61.096,83.862,-163.513
-0.466,-0.456,-0.382,38.513,44.983,-147.156
-0.369,-0.741,-0.146,32.959,19.104,-97.656
-0.327,-0.695,0.088,40.894,8.118,-23.315
-0.320,-0.241,0.306,56.396,11.597,54.871
-0.331,0.327,0.368,82.336,26.672,109.741
-0.346,0.856,0.284,93.445,43.518,137.512
-0.347,1.255,0.141,101.196,55.481,142.578
-0.342,1.526,-0.000,94.849,55.847,130.432
-0.363,1.755,-0.081,74.829,43.579,112.671
-0.335,1.946,-0.090,47.485,23.804,88.989
-0.304,2.043,-0.099,24.353,4.333,57.678
-0.252,1.994,-0.004,8.240,-15.137,19.348
-0.154,1.812,0.139,-4.272,-29.602,-15.625
-0.063,1.544,0.202,-10.254,-32.043,-40.955
-0.030,1.343,0.209,-9.216,-26.184,-52.124
0.056,1.191,0.162,-6.897,-18.921,-52.979
0.064,1.012,0.128,-9.033,-12.878,-49.683
0.070,0.913,0.115,-9.766,-8.667,-37.415
-0.027,0.902,0.095,-11.963,-2.991,-19.531
-0.007,0.991,0.018,-10.315,1.404,-4.333
0.007,1.104,-0.062,-10.803,3.540,2.747
0.033,1.146,-0.110,-12.451,1.953,1.221
-0.009,1.056,-0.077,-15.442,-3.357,-5.920
-0.069,0.984,-0.027,-21.362,-7.568,-8.545
-0.126,0.953,-0.018,-22.522,-8.606,-6.775
-0.127,0.951,-0.046,-20.325,-8.118,-4.333
-0.084,0.937,-0.112,-18.066,-8.667,-4.333
-0.033,0.942,-0.160,-20.996,-13.550,-5.615
-0.048,1.013,-0.170,-27.832,-21.729,-5.066
-0.121,1.111,-0.110,-33.875,-31.189,-6.531
-0.078,1.170,0.012,-35.828,-39.795,-13.733
0.009,1.090,0.100,-28.687,-40.161,-24.719
0.021,0.994,0.138,-19.348,-32.593,-31.494
0.027,0.950,0.122,-11.414,-21.301,-31.006
0.057,0.924,0.063,-6.531,-10.803,-28.625
0.074,0.903,0.004,-3.113,-3.845,-26.001
0.074,0.866,-0.013,0.305,-1.221,-24.170
0.083,0.808,-0.005,3.845,-0.122,-22.278
0.091,0.787,0.001,7.935,1.770,-16.418
0.104,0.783,0.000,11.536,4.333,-8.423
0.096,0.787,-0.001,13.794,7.446,-1.526
0.075,0.863,-0.023,15.381,10.681,6.226
0.071,0.958,-0.053,15.930,12.268,11.658
0.055,1.014,-0.072,15.503,11.169,12.390
0.033,1.000,-0.048,14.587,7.812,9.399
0.033,1.003,-0.012,13.245,4.333,8.606
0.022,1.026,0.018,11.902,3.296,9.094
-0.005,1.059,0.029,12.756,4.028,7.996
0.004,1.073,0.039,12.573,4.944,4.944
0.011,1.077,0.014,13.428,6.042,2.319
0.007,1.047,0.003,12.512,5.615,-0.122
0.005,1.031,-0.005,9.399,3.906,-1.404
-0.000,1.021,0.005,6.592,1.404,-1.831
-0.010,0.996,0.056,4.700,-0.488,-2.441
-0.032,1.015,0.086,2.563,0.366,-2.075
-0.036,1.029,0.052,5.493,3.906,-2.930
-0.008,1.021,-0.009,7.446,5.798,-5.920
-0.023,0.990,-0.050,7.263,4.028,-8.667
-0.023,0.903,-0.018,4.944,-1.282,-9.827
-0.018,0.863,0.036,1.282,-5.737,-5.615
0.006,0.915,0.075,-1.404,-6.714,2.686
0.025,1.018,0.076,-3.113,-4.822,9.033
0.003,1.123,0.031,-2.075,-1.892,9.888
-0.012,1.146,0.005,-1.648,-1.648,3.967
0.039,1.033,0.035,-2.808,-3.723,-4.395
0.025,0.881,0.079,-2.808,-4.272,-8.362
0.008,0.877,0.091,-3.723,-1.831,-1.587
-0.005,0.949,0.054,-2.686,1.953,6.775
0.005,1.028,0.001,-1.526,4.456,9.705
0.006,1.059,-0.042,-0.244,3.784,6.714
0.001,1.080,-0.072,-1.282,0.427,1.282
0.014,1.086,-0.066,-4.578,-4.089,-4.028
0.027,0.968,0.007,-7.629,-9.949,-10.925
0.027,0.818,0.107,-8.667,-12.634,-12.695
0.010,0.797,0.141,-6.592,-7.996,-3.418
0.017,0.888,0.114,-3.296,-0.366,8.362
0.026,1.023,0.049,-0.610,5.981,15.808
0.018,1.106,-0.020,1.831,9.338,15.442
-0.006,1.145,-0.086,1.343,8.606,9.644
-0.004,1.153,-0.135,-1.221,4.211,1.404
0.001,1.070,-0.117,-5.127,-3.601,-8.301
0.001,0.938,-0.020,-9.094,-12.024,-16.113
0.000,0.878,0.044,-11.108,-14.404,-15.015
0.018,0.875,0.060,-9.521,-11.658,-9.399
0.040,0.911,0.043,-8.423,-7.507,-4.272
0.056,0.941,0.054,-5.798,-4.395,-0.916
0.054,0.879,0.074,-2.014,-1.831,0.366
0.563,0.656,0.693,159.973,125.732,-3.235
0.455,0.530,-0.034,72.754,172.668,18.005
0.018,0.802,-0.555,19.531,137.146,56.702
-0.358,1.269,-1.081,-72.815,81.726,69.885
-0.289,1.365,-0.486,-102.356,3.601,36.316
0.095,1.037,-0.049,-8.240,-27.039,-10.315
0.484,0.861,-0.306,-3.845,-12.329,-41.626
0.464,0.829,-0.026,-40.161,-42.358,-48.279
0.318,1.000,0.279,-98.511,-69.885,-29.541
0.187,1.044,0.278,-98.572,-47.363,-16.174
0.197,1.019,0.012,-46.326,-10.437,-16.113
0.175,0.833,-0.032,-2.441,1.709,-11.841
0.274,0.957,0.051,15.381,6.409,6.714